Folder: Yaourt

Note: ARG2_cas4_GDL1_gap20.txt
350	64800	951	0.37	474	193
300	28800	1100	0.27	1526	612
350	28800	1124	0.31	608	218
300	28800	1291	0.23	1996	788
550	28800	1330	0.41	85	33
800	28800	1329	0.60	16.3	6.38
250	28800	1216	0.21	5973	2885
450	28800	1290	0.35	241	94.3
175	28800	1339	0.13	46708	27917

Note: MCR_cas4_GDL1_gap05.txt
300	28800	784	0.38265306122449	8845    3916

Note: MCR_cas4_GDL1_gap10.txt
150	28800	782	0.1918	446220  309965
175	28800	792	0.2210	292260  173220
200	58980	789	0.2535	158294  101054
250	28800	788	0.3173	27710   17110
300	68400	880	0.3409	13720   8350
300	28800	880	0.3409	14404   8812
350	61380	780	0.4487	6567    4226
412	61200	825	0.4994	6930    3292
400	50520	780	0.5128	2277    1148
400	69960	737	0.5427	3495    2108
450	28800	775	0.5806	1110    590
550	60000	810	0.6790	578 327
550	48000	785	0.7006	352 219
550	28800	780	0.7051	385 235
757	61200	757	1	192.3   102.5
780	61200	780	1	171 87.25
800	28800	759	1.054	55  32.5
1000	65610	736	1.3587	24.6  13.6

Note: MCR_cas4_GDL1_gap15.txt
300	28800	792	0.378787878787879	3065    1765

Note: MCR_cas4_GDL1_gap30.txt
220	28800	1080	0.61	7345	4545
440	28800	1020	1.29	180	87.5
551	28800	1075	0.51	55	27.5
330	28800	1201	0.27	720	482
220	28800	1137	0.19	12025	7220
165	28800	972	0.17	49230	30112
330	28800	940	0.35	209	97.5
200	28800	1018	0.20	19430	12622

Note: MCR_cas4_GDL4_gap10.txt
20	28800	107	0.186915887850467	488730  235960.0
40	28800	99	0.404040404040404	14786   2735.0
40	28800	91	0.43956043956044	67225   40175.0
50	28800	109	0.458715596330275	8036    2381.5
50	28800	95	0.526315789473684	29860   15764.5
60	28800	102	0.588235294117647	2242    502.5965
80	28800	97	0.824742268041237	284 104.399
100	28800	105	0.952380952380952	80.4    19.4705
100	28800	93	1.0752688172043	398 122.0
120	28800	105	1.14285714285714	17.2    1.4
140	28800	109	1.28440366972477	3   1.4825
200	28800	100	2	4   1.5
300	28800	97	3.09278350515464	0.06    0.044

Note: Y110_300Pa.txt
#time	strain	shear stress
#s		Pa
0	0	300.0
5.4400E-4	5.8920E-4	300.0
1.5680E-3	7.3476E-3	300.0
2.5920E-3	0.025621	300.0
3.6160E-3	0.054236	300.0
4.6400E-3	0.089409	300.0
5.6640E-3	0.12615	300.0
6.6880E-3	0.15922	300.0
7.7120E-3	0.18378	300.0
8.7360E-3	0.19680	300.0
9.7600E-3	0.19795	300.0
0.010784	0.18958	300.0
0.011808	0.17543	300.0
0.012832	0.15966	300.0
0.013856	0.14577	300.0
0.014880	0.13614	300.0
0.015904	0.13198	300.0
0.016928	0.13342	300.0
0.017952	0.13977	300.0
0.018976	0.14963	300.0
0.020000	0.16104	300.0
0.021024	0.17185	300.0
0.022048	0.18010	300.0
0.023072	0.18464	300.0
0.024096	0.18517	300.0
0.025120	0.18231	300.0
0.026144	0.17737	300.0
0.027168	0.17189	300.0
0.028192	0.16718	300.0
0.029216	0.16421	300.0
0.030240	0.16348	300.0
0.031264	0.16492	300.0
0.032288	0.16806	300.0
0.033312	0.17220	300.0
0.034336	0.17648	300.0
0.035360	0.18008	300.0
0.036384	0.18246	300.0
0.037408	0.18339	300.0
0.038432	0.18292	300.0
0.039456	0.18148	300.0
0.040480	0.17960	300.0
0.042016	0.17725	300.0
0.044064	0.17668	300.0
0.046112	0.17938	300.0
0.048160	0.18331	300.0
0.050208	0.18588	300.0
0.052256	0.18608	300.0
0.054304	0.18486	300.0
0.056352	0.18389	300.0
0.058400	0.18424	300.0
0.060448	0.18579	300.0
0.062496	0.18761	300.0
0.064544	0.18881	300.0
0.066592	0.18923	300.0
0.068640	0.18929	300.0
0.070688	0.18951	300.0
0.072736	0.19006	300.0
0.074784	0.19076	300.0
0.076832	0.19139	300.0
0.078880	0.19187	300.0
0.080928	0.19230	300.0
0.082976	0.19279	300.0
0.085024	0.19343	300.0
0.087072	0.19413	300.0
0.089120	0.19470	300.0
0.091168	0.19507	300.0
0.093216	0.19527	300.0
0.095264	0.19548	300.0
0.097312	0.19581	300.0
0.099360	0.19632	300.0
0.10141	0.19696	300.0
0.10346	0.19758	300.0
0.10550	0.19809	300.0
0.10755	0.19846	300.0
0.10960	0.19874	300.0
0.11165	0.19899	300.0
0.11370	0.19927	300.0
0.11574	0.19961	300.0
0.11779	0.20001	300.0
0.11984	0.20045	300.0
0.12189	0.20088	300.0
0.12496	0.20147	300.0
0.12906	0.20209	300.0
0.13315	0.20264	300.0
0.13725	0.20331	300.0
0.14134	0.20407	300.0
0.14544	0.20468	300.0
0.14954	0.20514	300.0
0.15363	0.20567	300.0
0.15773	0.20638	300.0
0.16182	0.20706	300.0
0.16592	0.20751	300.0
0.17002	0.20789	300.0
0.17411	0.20840	300.0
0.17821	0.20903	300.0
0.18230	0.20961	300.0
0.18640	0.21007	300.0
0.19050	0.21047	300.0
0.19459	0.21098	300.0
0.19869	0.21147	300.0
0.20278	0.21188	300.0
0.20688	0.21228	300.0
0.21098	0.21279	300.0
0.21507	0.21332	300.0
0.21917	0.21376	300.0
0.22326	0.21407	300.0
0.22736	0.21438	300.0
0.23146	0.21487	300.0
0.23555	0.21542	300.0
0.23965	0.21583	300.0
0.24374	0.21609	300.0
0.24784	0.21641	300.0
0.25194	0.21685	300.0
0.25603	0.21731	300.0
0.26013	0.21766	300.0
0.26422	0.21794	300.0
0.26832	0.21829	300.0
0.27242	0.21873	300.0
0.27651	0.21912	300.0
0.28061	0.21939	300.0
0.28470	0.21969	300.0
0.29085	0.22026	300.0
0.29904	0.22091	300.0
0.30723	0.22152	300.0
0.31542	0.22222	300.0
0.32362	0.22274	

Note: Y110_fracturelength_log.txt
0.00127551 0.392963 0.0438982
0.00191327 0.348148 0.0482223
0.00276361 0.331111 0.027948
0.00340136 0.33 0.0214495
0.00446429 0.317407 0.0296253
0.00595238 0.302592 0.0206147
0.00701531 0.302222 0.0168015
0.00914116 0.280741 0.0113435
0.0108418 0.275926 0.0123839
0.0140306 0.261852 0.0101966
0.017432 0.25 0.00635098
0.0212585 0.24 0.0102242
0.0269983 0.227037 0.0115587
0.033801 0.212593 0.0132199
0.0416667 0.197778 0.0120017
0.0516582 0.188519 0.0129044
0.0644133 0.176666 0.0134256
0.0809949 0.165186 0.0154313
0.10034 0.152222 0.015476
0.124575 0.138148 0.0133747
0.154974 0.125185 0.0123504
0.19324 0.111111 0.0120017
0.240434 0.0988894 0.0113312
0.299745 0.0837039 0.0101161
0.372662 0.0670372 0.0101161
0.463648 0.0529633 0.00813144

File: freqsweep_Y271_cas4_GDL4.txt
Angular Frequency	Storage Modulus	Loss Modulus
[1/s]	[Pa]	[Pa]
62.83	8.749E+1	6.702E0
53.89	8.75E+1	6.444E0
46.22	8.743E+1	6.221E0
39.64	8.724E+1	6.033E0
34	8.697E+1	5.862E0
29.16	8.663E+1	5.723E0
25.01	8.625E+1	5.601E0
21.45	8.585E+1	5.495E0
18.4	8.543E+1	5.397E0
15.78	8.501E+1	5.307E0
13.54	8.455E+1	5.234E0
11.61	8.408E+1	5.174E0
9.958	8.364E+1	5.1E0
8.541	8.315E+1	5.06E0
7.326	8.278E+1	5.016E0
6.283	8.22E+1	4.954E0
5.389	8.181E+1	4.926E0
4.622	8.133E+1	4.91E0
3.964	8.088E+1	4.881E0
3.4	8.04E+1	4.856E0
2.916	7.993E+1	4.862E0
2.501	7.949E+1	4.837E0
2.145	7.905E+1	4.812E0
1.84	7.857E+1	4.853E0
1.578	7.808E+1	4.767E0
1.354	7.773E+1	4.813E0
1.161	7.736E+1	4.862E0
0.9958	7.685E+1	4.798E0
0.8541	7.632E+1	4.757E0
0.7326	7.593E+1	4.867E0
0.6283	7.545E+1	4.955E0
0.5389	7.506E+1	4.858E0
0.4622	7.466E+1	4.84E0
0.3964	7.416E+1	4.852E0
0.34	7.358E+1	4.859E0
0.2916	7.338E+1	4.953E0
0.2501	7.275E+1	4.664E0
0.2145	7.251E+1	5.106E0
0.184	7.24E+1	5.14E0
0.1578	7.18E+1	4.577E0
0.1354	7.073E+1	5.086E0
0.1161	7.071E+1	5.305E0
0.09958	7.042E+1	5.308E0
0.08541	7.018E+1	5.476E0
0.07326	7.014E+1	5.171E0
0.06283	6.943E+1	4.373E0